# Pbox  91835.05   2 4095  0.0     0    1.0000 0.03910     6
# VJ3.0  pw (us)  pwr  pwrf  dres  dmf  dcyc   B1max (kHz)  Stype
# ---------------------------------------------------------------
# Pxsim 0.0918351 35.9973 0.000 1360.8 0.0000000 0.0000000 0.00
# data: pw (s) B1max (Hz) status sw (Hz) T1 (s)   T2 (s) RDC (Hz)
# ---------------------------------------------------------------
# Pbox.inp data :
# ~~~~~~~~~~~~~~~~~~~~~~~~~~~Waves~~~~~~~~~~~~~~~~~~~~~~~~~~~~~~~~~~
#   shape   bw(/pw)   ofs  st  ph  fla  trev  d1  d2   d0   wrp  php
# ~~~~~~~~~~~~~~~~~~~~~~~~~~~~~~~~~~~~~~~~~~~~~~~~~~~~~~~~~~~~~~~~~~
# { q3 39.2 562.8 }
#
# type      = r          mod       = n          dres      = n         
# steps     = n          stepsize  = n          attn      = i         
# refofs    = n          wrap      = n          sfrq      = n         
# sucyc     = d          reps      = 2          header    = y         
# bscor     = n          pad1      = n          pad2      = n         
# bsim      = n          T1        = n          T2        = n         
# rdc       = n          dcyc      = n          sw        = n         
#
# RF Calibration Data :  ref_pwr   = 60         ref_pw90  = 8.05
# ~~~~~~~~~~~~~~~~~~~~~
###
# ------------------- Shape data ------------------
# pwtot      = 0.0918351 (total pw, s)
# power      = 2 (power level, dB)
# pwrf       = 4095 (fine power)
# B1max      = 0.0391 (B1max, kHz)
# B1rms      = 0.0200 (B1[RMS], kHz)
# nptot      = 677 (total number of steps)
# stepsize   = 135.65 (length of a single step, us)
# maxamp     = 942.8 (max amplitude)
# maximum phase increment = 27.48 deg
# ------------------------------------------------- 
#      phase      amplitude   length     gate 
# ------------------------------------------------- 
        0.00      1023.00      0.0        0
     127.226       48.672      1.0        1
     154.710       44.888      1.0        1
     182.194       41.207      1.0        1
     209.677       37.634      1.0        1
     237.161       34.172      1.0        1
     264.645       30.826      1.0        1
     292.129       27.599      1.0        1
     319.613       24.495      1.0        1
     347.096       21.516      1.0        1
      14.580       18.665      1.0        1
      42.064       15.944      1.0        1
      69.548       13.355      1.0        1
      97.031       10.899      1.0        1
     124.515        8.577      1.0        1
     151.999        6.389      1.0        1
     179.483        4.336      1.0        1
     206.966        2.416      1.0        1
     234.450        0.630      1.0        1
      81.934        0.000      1.0        0
     109.418        0.548      1.0        1
     136.902        1.944      1.0        1
     164.385        3.214      1.0        1
     191.869        4.361      1.0        1
     219.353        5.389      1.0        1
     246.837        6.302      1.0        1
     274.320        7.103      1.0        1
     301.804        7.796      1.0        1
     329.288        8.387      1.0        1
     356.772        8.881      1.0        1
      24.256        9.283      1.0        1
      51.739        9.597      1.0        1
      79.223        9.831      1.0        1
     106.707        9.991      1.0        1
     134.191       10.081      1.0        1
     161.674       10.109      1.0        1
     189.158       10.082      1.0        1
     216.642       10.005      1.0        1
     244.126        9.886      1.0        1
     271.610        9.731      1.0        1
     299.093        9.547      1.0        1
     326.577        9.340      1.0        1
     354.061        9.118      1.0        1
      21.545        8.887      1.0        1
      49.028        8.653      1.0        1
      76.512        8.424      1.0        1
     103.996        8.205      1.0        1
     131.480        8.002      1.0        1
     158.964        7.823      1.0        1
     186.447        7.671      1.0        1
     213.931        7.554      1.0        1
     241.415        7.476      1.0        1
     268.899        7.443      1.0        1
     296.382        7.460      1.0        1
     323.866        7.531      1.0        1
     351.350        7.661      1.0        1
      18.834        7.854      1.0        1
      46.317        8.114      1.0        1
      73.801        8.444      1.0        1
     101.285        8.847      1.0        1
     128.769        9.328      1.0        1
     156.253        9.887      1.0        1
     183.736       10.529      1.0        1
     211.220       11.254      1.0        1
     238.704       12.066      1.0        1
     266.188       12.964      1.0        1
     293.671       13.952      1.0        1
     321.155       15.030      1.0        1
     348.639       16.198      1.0        1
      16.123       17.458      1.0        1
      43.607       18.811      1.0        1
      71.090       20.255      1.0        1
      98.574       21.793      1.0        1
     126.058       23.422      1.0        1
     153.542       25.145      1.0        1
     181.025       26.959      1.0        1
     208.509       28.866      1.0        1
     235.993       30.864      1.0        1
     263.477       32.953      1.0        1
     290.961       35.133      1.0        1
     318.444       37.403      1.0        1
     345.928       39.762      1.0        1
      13.412       42.211      1.0        1
      40.896       44.748      1.0        1
      68.379       47.373      1.0        1
      95.863       50.087      1.0        1
     123.347       52.888      1.0        1
     150.831       55.776      1.0        1
     178.315       58.753      1.0        1
     205.798       61.817      1.0        1
     233.282       64.969      1.0        1
     260.766       68.209      1.0        1
     288.250       71.539      1.0        1
     315.733       74.958      1.0        1
     343.217       78.467      1.0        1
      10.701       82.068      1.0        1
      38.185       85.761      1.0        1
      65.668       89.549      1.0        1
      93.152       93.432      1.0        1
     120.636       97.412      1.0        1
     148.120      101.491      1.0        1
     175.604      105.671      1.0        1
     203.087      109.955      1.0        1
     230.571      114.343      1.0        1
     258.055      118.839      1.0        1
     285.539      123.446      1.0        1
     313.022      128.165      1.0        1
     340.506      133.000      1.0        1
       7.990      137.952      1.0        1
      35.474      143.025      1.0        1
      62.958      148.222      1.0        1
      90.441      153.545      1.0        1
     117.925      158.997      1.0        1
     145.409      164.581      1.0        1
     172.893      170.298      1.0        1
     200.376      176.153      1.0        1
     227.860      182.148      1.0        1
     255.344      188.284      1.0        1
     282.828      194.563      1.0        1
     310.312      200.990      1.0        1
     337.795      207.564      1.0        1
       5.279      214.287      1.0        1
      32.763      221.162      1.0        1
      60.247      228.189      1.0        1
      87.730      235.370      1.0        1
     115.214      242.704      1.0        1
     142.698      250.193      1.0        1
     170.182      257.837      1.0        1
     197.666      265.635      1.0        1
     225.149      273.587      1.0        1
     252.633      281.693      1.0        1
     280.117      289.950      1.0        1
     307.601      298.357      1.0        1
     335.084      306.913      1.0        1
       2.568      315.614      1.0        1
      30.052      324.459      1.0        1
      57.536      333.445      1.0        1
      85.020      342.567      1.0        1
     112.503      351.822      1.0        1
     139.987      361.206      1.0        1
     167.471      370.714      1.0        1
     194.955      380.341      1.0        1
     222.438      390.083      1.0        1
     249.922      399.932      1.0        1
     277.406      409.884      1.0        1
     304.890      419.932      1.0        1
     332.373      430.069      1.0        1
     359.857      440.288      1.0        1
      27.341      450.581      1.0        1
      54.825      460.942      1.0        1
      82.309      471.362      1.0        1
     109.792      481.834      1.0        1
     137.276      492.348      1.0        1
     164.760      502.896      1.0        1
     192.244      513.470      1.0        1
     219.727      524.060      1.0        1
     247.211      534.658      1.0        1
     274.695      545.253      1.0        1
     302.179      555.837      1.0        1
     329.663      566.400      1.0        1
     357.146      576.932      1.0        1
      24.630      587.424      1.0        1
      52.114      597.866      1.0        1
      79.598      608.248      1.0        1
     107.081      618.560      1.0        1
     134.565      628.793      1.0        1
     162.049      638.937      1.0        1
     189.533      648.982      1.0        1
     217.017      658.918      1.0        1
     244.500      668.736      1.0        1
     271.984      678.427      1.0        1
     299.468      687.981      1.0        1
     326.952      697.388      1.0        1
     354.435      706.641      1.0        1
      21.919      715.729      1.0        1
      49.403      724.643      1.0        1
      76.887      733.377      1.0        1
     104.371      741.919      1.0        1
     131.854      750.264      1.0        1
     159.338      758.402      1.0        1
     186.822      766.325      1.0        1
     214.306      774.026      1.0        1
     241.789      781.498      1.0        1
     269.273      788.732      1.0        1
     296.757      795.723      1.0        1
     324.241      802.463      1.0        1
     351.724      808.946      1.0        1
      19.208      815.165      1.0        1
      46.692      821.115      1.0        1
      74.176      826.789      1.0        1
     101.660      832.181      1.0        1
     129.143      837.288      1.0        1
     156.627      842.103      1.0        1
     184.111      846.621      1.0        1
     211.595      850.838      1.0        1
     239.078      854.749      1.0        1
     266.562      858.350      1.0        1
     294.046      861.638      1.0        1
     321.530      864.608      1.0        1
     349.014      867.257      1.0        1
      16.497      869.581      1.0        1
      43.981      871.578      1.0        1
      71.465      873.245      1.0        1
      98.949      874.580      1.0        1
     126.432      875.579      1.0        1
     153.916      876.240      1.0        1
     181.400      876.563      1.0        1
     208.884      876.545      1.0        1
     236.368      876.184      1.0        1
     263.851      875.480      1.0        1
     291.335      874.432      1.0        1
     318.819      873.038      1.0        1
     346.303      871.298      1.0        1
      13.786      869.212      1.0        1
      41.270      866.780      1.0        1
      68.754      864.002      1.0        1
      96.238      860.877      1.0        1
     123.722      857.408      1.0        1
     151.205      853.594      1.0        1
     178.689      849.437      1.0        1
     206.173      844.938      1.0        1
     233.657      840.098      1.0        1
     261.140      834.919      1.0        1
     288.624      829.404      1.0        1
     316.108      823.554      1.0        1
     343.592      817.372      1.0        1
      11.075      810.860      1.0        1
      38.559      804.022      1.0        1
      66.043      796.861      1.0        1
      93.527      789.379      1.0        1
     121.011      781.582      1.0        1
     148.494      773.472      1.0        1
     175.978      765.054      1.0        1
     203.462      756.331      1.0        1
     230.946      747.309      1.0        1
     258.429      737.993      1.0        1
     285.913      728.386      1.0        1
     313.397      718.495      1.0        1
     340.881      708.325      1.0        1
       8.365      697.881      1.0        1
      35.848      687.169      1.0        1
      63.332      676.194      1.0        1
      90.816      664.964      1.0        1
     118.300      653.484      1.0        1
     145.783      641.760      1.0        1
     173.267      629.800      1.0        1
     200.751      617.608      1.0        1
     228.235      605.194      1.0        1
     255.719      592.562      1.0        1
     283.202      579.721      1.0        1
     310.686      566.676      1.0        1
     338.170      553.436      1.0        1
       5.654      540.007      1.0        1
      33.137      526.396      1.0        1
      60.621      512.611      1.0        1
      88.105      498.659      1.0        1
     115.589      484.546      1.0        1
     143.073      470.280      1.0        1
     170.556      455.868      1.0        1
     198.040      441.317      1.0        1
     225.524      426.634      1.0        1
     253.008      411.825      1.0        1
     280.491      396.898      1.0        1
     307.975      381.860      1.0        1
     335.459      366.716      1.0        1
       2.943      351.474      1.0        1
      30.427      336.139      1.0        1
      57.910      320.718      1.0        1
      85.394      305.217      1.0        1
     112.878      289.641      1.0        1
     140.362      273.997      1.0        1
     167.845      258.289      1.0        1
     195.329      242.524      1.0        1
     222.813      226.706      1.0        1
     250.297      210.840      1.0        1
     277.780      194.931      1.0        1
     305.264      178.985      1.0        1
     332.748      163.004      1.0        1
       0.232      146.993      1.0        1
      27.716      130.957      1.0        1
      55.199      114.899      1.0        1
      82.683       98.824      1.0        1
     110.167       82.734      1.0        1
     137.651       66.632      1.0        1
     165.134       50.523      1.0        1
     192.618       34.410      1.0        1
     220.102       18.294      1.0        1
     247.586        2.180      1.0        1
      95.070       11.930      1.0        1
     122.553       28.034      1.0        1
     150.037       44.128      1.0        1
     177.521       60.211      1.0        1
     205.005       76.279      1.0        1
     232.488       92.332      1.0        1
     259.972      108.365      1.0        1
     287.456      124.376      1.0        1
     314.940      140.364      1.0        1
     342.424      156.326      1.0        1
       9.907      172.258      1.0        1
      37.391      188.160      1.0        1
      64.875      204.028      1.0        1
      92.359      219.860      1.0        1
     119.842      235.652      1.0        1
     147.326      251.402      1.0        1
     174.810      267.107      1.0        1
     202.294      282.764      1.0        1
     229.778      298.369      1.0        1
     257.261      313.919      1.0        1
     284.745      329.411      1.0        1
     312.229      344.841      1.0        1
     339.713      360.205      1.0        1
       7.196      375.498      1.0        1
      34.680      390.716      1.0        1
      62.164      405.856      1.0        1
      89.648      420.911      1.0        1
     117.131      435.878      1.0        1
     144.615      450.751      1.0        1
     172.099      465.524      1.0        1
     199.583      480.193      1.0        1
     227.067      494.752      1.0        1
     254.550      509.194      1.0        1
     282.034      523.514      1.0        1
     309.518      537.705      1.0        1
     337.002      551.762      1.0        1
       4.485      565.677      1.0        1
      31.969      579.443      1.0        1
      59.453      593.055      1.0        1
      86.937      606.504      1.0        1
     114.421      619.785      1.0        1
     141.904      632.889      1.0        1
     169.388      645.811      1.0        1
     196.872      658.541      1.0        1
     224.356      671.074      1.0        1
     251.839      683.401      1.0        1
     279.323      695.516      1.0        1
     306.807      707.411      1.0        1
     334.291      719.079      1.0        1
       1.775      730.513      1.0        1
      29.258      741.706      1.0        1
      56.742      752.650      1.0        1
      84.226      763.339      1.0        1
     111.710      773.766      1.0        1
     139.193      783.925      1.0        1
     166.677      793.808      1.0        1
     194.161      803.411      1.0        1
     221.645      812.726      1.0        1
     249.129      821.748      1.0        1
     276.612      830.471      1.0        1
     304.096      838.891      1.0        1
     331.580      847.001      1.0        1
     359.064      854.798      1.0        1
      26.547      862.277      1.0        1
      54.031      869.434      1.0        1
      81.515      876.265      1.0        1
     108.999      882.767      1.0        1
     136.482      888.936      1.0        1
     163.966      894.770      1.0        1
     191.450      900.267      1.0        1
     218.934      905.424      1.0        1
     246.418      910.240      1.0        1
     273.901      914.713      1.0        1
     301.385      918.843      1.0        1
     328.869      922.630      1.0        1
     356.353      926.072      1.0        1
      23.836      929.171      1.0        1
      51.320      931.926      1.0        1
      78.804      934.340      1.0        1
     106.288      936.413      1.0        1
     133.772      938.146      1.0        1
     161.255      939.543      1.0        1
     188.739      940.605      1.0        1
     216.223      941.336      1.0        1
     243.707      941.738      1.0        1
     271.190      941.815      1.0        1
     298.674      941.570      1.0        1
     326.158      941.008      1.0        1
     353.642      940.132      1.0        1
      21.126      938.949      1.0        1
      48.609      937.461      1.0        1
      76.093      935.675      1.0        1
     103.577      933.596      1.0        1
     131.061      931.230      1.0        1
     158.544      928.582      1.0        1
     186.028      925.659      1.0        1
     213.512      922.466      1.0        1
     240.996      919.011      1.0        1
     268.480      915.299      1.0        1
     295.963      911.338      1.0        1
     323.447      907.135      1.0        1
     350.931      902.696      1.0        1
      18.415      898.029      1.0        1
      45.898      893.142      1.0        1
      73.382      888.041      1.0        1
     100.866      882.734      1.0        1
     128.350      877.229      1.0        1
     155.834      871.534      1.0        1
     183.317      865.656      1.0        1
     210.801      859.604      1.0        1
     238.285      853.385      1.0        1
     265.769      847.007      1.0        1
     293.252      840.478      1.0        1
     320.736      833.807      1.0        1
     348.220      827.001      1.0        1
      15.704      820.068      1.0        1
      43.187      813.017      1.0        1
      70.671      805.856      1.0        1
      98.155      798.593      1.0        1
     125.639      791.236      1.0        1
     153.123      783.794      1.0        1
     180.606      776.274      1.0        1
     208.090      768.685      1.0        1
     235.574      761.034      1.0        1
     263.058      753.331      1.0        1
     290.541      745.583      1.0        1
     318.025      737.798      1.0        1
     345.509      729.984      1.0        1
      12.993      722.150      1.0        1
      40.477      714.303      1.0        1
      67.960      706.451      1.0        1
      95.444      698.602      1.0        1
     122.928      690.765      1.0        1
     150.412      682.946      1.0        1
     177.895      675.154      1.0        1
     205.379      667.395      1.0        1
     232.863      659.679      1.0        1
     260.347      652.011      1.0        1
     287.831      644.401      1.0        1
     315.314      636.854      1.0        1
     342.798      629.377      1.0        1
      10.282      621.979      1.0        1
      37.766      614.666      1.0        1
      65.249      607.444      1.0        1
      92.733      600.321      1.0        1
     120.217      593.303      1.0        1
     147.701      586.395      1.0        1
     175.185      579.605      1.0        1
     202.668      572.937      1.0        1
     230.152      566.399      1.0        1
     257.636      559.995      1.0        1
     285.120      553.731      1.0        1
     312.603      547.611      1.0        1
     340.087      541.641      1.0        1
       7.571      535.826      1.0        1
      35.055      530.169      1.0        1
      62.538      524.674      1.0        1
      90.022      519.347      1.0        1
     117.506      514.189      1.0        1
     144.990      509.205      1.0        1
     172.474      504.397      1.0        1
     199.957      499.768      1.0        1
     227.441      495.320      1.0        1
     254.925      491.056      1.0        1
     282.409      486.976      1.0        1
     309.892      483.084      1.0        1
     337.376      479.378      1.0        1
       4.860      475.862      1.0        1
      32.344      472.534      1.0        1
      59.828      469.394      1.0        1
      87.311      466.444      1.0        1
     114.795      463.682      1.0        1
     142.279      461.107      1.0        1
     169.763      458.718      1.0        1
     197.246      456.514      1.0        1
     224.730      454.492      1.0        1
     252.214      452.652      1.0        1
     279.698      450.989      1.0        1
     307.182      449.503      1.0        1
     334.665      448.189      1.0        1
       2.149      447.046      1.0        1
      29.633      446.068      1.0        1
      57.117      445.253      1.0        1
      84.600      444.596      1.0        1
     112.084      444.095      1.0        1
     139.568      443.743      1.0        1
     167.052      443.537      1.0        1
     194.536      443.473      1.0        1
     222.019      443.545      1.0        1
     249.503      443.748      1.0        1
     276.987      444.078      1.0        1
     304.471      444.529      1.0        1
     331.954      445.096      1.0        1
     359.438      445.774      1.0        1
      26.922      446.557      1.0        1
      54.406      447.440      1.0        1
      81.889      448.418      1.0        1
     109.373      449.484      1.0        1
     136.857      450.635      1.0        1
     164.341      451.864      1.0        1
     191.825      453.166      1.0        1
     219.308      454.536      1.0        1
     246.792      455.969      1.0        1
     274.276      457.459      1.0        1
     301.760      459.001      1.0        1
     329.243      460.591      1.0        1
     356.727      462.223      1.0        1
      24.211      463.893      1.0        1
      51.695      465.597      1.0        1
      79.179      467.329      1.0        1
     106.662      469.086      1.0        1
     134.146      470.863      1.0        1
     161.630      472.657      1.0        1
     189.114      474.463      1.0        1
     216.597      476.278      1.0        1
     244.081      478.098      1.0        1
     271.565      479.919      1.0        1
     299.049      481.739      1.0        1
     326.533      483.555      1.0        1
     354.016      485.363      1.0        1
      21.500      487.160      1.0        1
      48.984      488.944      1.0        1
      76.468      490.712      1.0        1
     103.951      492.462      1.0        1
     131.435      494.191      1.0        1
     158.919      495.897      1.0        1
     186.403      497.579      1.0        1
     213.887      499.233      1.0        1
     241.370      500.858      1.0        1
     268.854      502.452      1.0        1
     296.338      504.013      1.0        1
     323.822      505.540      1.0        1
     351.305      507.030      1.0        1
      18.789      508.482      1.0        1
      46.273      509.894      1.0        1
      73.757      511.265      1.0        1
     101.241      512.592      1.0        1
     128.724      513.875      1.0        1
     156.208      515.111      1.0        1
     183.692      516.299      1.0        1
     211.176      517.436      1.0        1
     238.659      518.522      1.0        1
     266.143      519.555      1.0        1
     293.627      520.531      1.0        1
     321.111      521.451      1.0        1
     348.594      522.311      1.0        1
      16.078      523.110      1.0        1
      43.562      523.846      1.0        1
      71.046      524.517      1.0        1
      98.530      525.120      1.0        1
     126.013      525.654      1.0        1
     153.497      526.116      1.0        1
     180.981      526.505      1.0        1
     208.465      526.817      1.0        1
     235.948      527.051      1.0        1
     263.432      527.204      1.0        1
     290.916      527.275      1.0        1
     318.400      527.260      1.0        1
     345.884      527.158      1.0        1
      13.367      526.967      1.0        1
      40.851      526.684      1.0        1
      68.335      526.307      1.0        1
      95.819      525.833      1.0        1
     123.302      525.262      1.0        1
     150.786      524.591      1.0        1
     178.270      523.818      1.0        1
     205.754      522.942      1.0        1
     233.238      521.960      1.0        1
     260.721      520.872      1.0        1
     288.205      519.676      1.0        1
     315.689      518.371      1.0        1
     343.173      516.955      1.0        1
      10.656      515.429      1.0        1
      38.140      513.791      1.0        1
      65.624      512.041      1.0        1
      93.108      510.178      1.0        1
     120.592      508.203      1.0        1
     148.075      506.116      1.0        1
     175.559      503.917      1.0        1
     203.043      501.607      1.0        1
     230.527      499.187      1.0        1
     258.010      496.657      1.0        1
     285.494      494.020      1.0        1
     312.978      491.277      1.0        1
     340.462      488.429      1.0        1
       7.945      485.479      1.0        1
      35.429      482.428      1.0        1
      62.913      479.281      1.0        1
      90.397      476.038      1.0        1
     117.881      472.704      1.0        1
     145.364      469.280      1.0        1
     172.848      465.772      1.0        1
     200.332      462.181      1.0        1
     227.816      458.513      1.0        1
     255.299      454.769      1.0        1
     282.783      450.956      1.0        1
     310.267      447.076      1.0        1
     337.751      443.134      1.0        1
       5.235      439.133      1.0        1
      32.718      435.079      1.0        1
      60.202      430.976      1.0        1
      87.686      426.828      1.0        1
     115.170      422.640      1.0        1
     142.653      418.415      1.0        1
     170.137      414.159      1.0        1
     197.621      409.875      1.0        1
     225.105      405.568      1.0        1
     252.589      401.242      1.0        1
     280.072      396.901      1.0        1
     307.556      392.549      1.0        1
     335.040      388.189      1.0        1
       2.524      383.825      1.0        1
      30.007      379.462      1.0        1
      57.491      375.101      1.0        1
      84.975      370.745      1.0        1
     112.459      366.399      1.0        1
     139.943      362.063      1.0        1
     167.426      357.741      1.0        1
     194.910      353.434      1.0        1
     222.394      349.145      1.0        1
     249.878      344.874      1.0        1
     277.361      340.623      1.0        1
     304.845      336.393      1.0        1
     332.329      332.184      1.0        1
     359.813      327.997      1.0        1
      27.296      323.832      1.0        1
      54.780      319.689      1.0        1
      82.264      315.567      1.0        1
     109.748      311.466      1.0        1
     137.232      307.384      1.0        1
     164.715      303.321      1.0        1
     192.199      299.276      1.0        1
     219.683      295.245      1.0        1
     247.167      291.229      1.0        1
     274.650      287.224      1.0        1
     302.134      283.228      1.0        1
     329.618      279.240      1.0        1
     357.102      275.257      1.0        1
      24.586      271.276      1.0        1
      52.069      267.294      1.0        1
      79.553      263.310      1.0        1
     107.037      259.320      1.0        1
     134.521      255.321      1.0        1
     162.004      251.311      1.0        1
     189.488      247.288      1.0        1
     216.972      243.248      1.0        1
     244.456      239.190      1.0        1
     271.940      235.110      1.0        1
     299.423      231.006      1.0        1
     326.907      226.877      1.0        1
     354.391      222.720      1.0        1
      21.875      218.534      1.0        1
      49.358      214.317      1.0        1
      76.842      210.068      1.0        1
     104.326      205.785      1.0        1
     131.810      201.469      1.0        1
     159.294      197.118      1.0        1
     186.777      192.732      1.0        1
     214.261      188.311      1.0        1
     241.745      183.857      1.0        1
     269.229      179.369      1.0        1
     296.712      174.848      1.0        1
     324.196      170.297      1.0        1
     351.680      165.716      1.0        1
      19.164      161.108      1.0        1
      46.648      156.475      1.0        1
      74.131      151.820      1.0        1
     101.615      147.146      1.0        1
     129.099      142.456      1.0        1
     156.583      137.754      1.0        1
     184.066      133.043      1.0        1
     211.550      128.329      1.0        1
     239.034      123.615      1.0        1
     266.518      118.906      1.0        1
     294.001      114.208      1.0        1
     321.485      109.524      1.0        1
     348.969      104.861      1.0        1
      16.453      100.224      1.0        1
      43.937       95.618      1.0        1
      71.420       91.050      1.0        1
      98.904       86.524      1.0        1
     126.388       82.047      1.0        1
     153.872       77.625      1.0        1
     181.355       73.262      1.0        1
     208.839       68.966      1.0        1
     236.323       64.742      1.0        1
     263.807       60.595      1.0        1
     291.291       56.531      1.0        1
     318.774       52.555      1.0        1
     346.258       48.672      1.0        1
